File: data_bases/gas data/sao2010.txt
# Solar reference spectrum
# Wavelength (nm),       Intensity (Photons s-1 cm-2 nm-1)
200.07 6.21934e+11
200.61 1.03064e+12
201.15 8.01808e+11
201.69 9.57175e+11
202.23 8.85216e+11
202.77 9.59835e+11
203.31 1.13619e+12
203.85 1.31463e+12
204.39 1.28853e+12
204.93 1.36101e+12
205.47 1.40821e+12
206.01 1.58884e+12
206.55 1.59701e+12
207.09 1.44863e+12
207.63 1.72241e+12
208.17 1.58283e+12
208.71 2.47127e+12
209.25 1.70674e+12
209.79 3.17991e+12
210.33 2.78661e+12
210.87 3.30039e+12
211.41 3.50071e+12
211.95 5.21689e+12
212.49 1.17392e+12
213.03 2.79217e+12
213.57 2.9669e+12
214.11 6.51541e+12
214.65 4.18988e+12
215.19 4.62688e+12
215.73 3.51038e+12
216.27 4.10369e+12
216.81 3.11655e+12
217.35 4.96435e+12
217.89 2.81063e+12
218.43 3.51582e+12
218.97 3.22522e+12
219.51 6.41711e+12
220.05 6.48994e+12
220.59 9.34871e+12
221.13 2.38641e+12
221.67 4.10004e+12
222.21 8.13014e+12
222.75 5.36791e+12
223.29 8.79887e+12
223.83 6.53144e+12
224.37 6.7693e+12
224.91 7.27768e+12
225.45 3.53563e+12
225.99 7.76597e+12
226.53 3.08747e+12
227.07 3.82782e+12
227.61 4.41944e+12
228.15 8.03067e+12
228.69 4.55177e+12
229.23 6.21964e+12
229.77 3.56553e+12
230.31 7.86006e+12
230.85 6.57306e+12
231.39 3.94123e+12
231.93 7.50254e+12
232.47 1.08908e+13
233.01 9.63622e+12
233.55 4.86086e+12
234.09 5.53114e+12
234.63 3.29929e+12
235.17 6.56193e+12
235.71 7.37783e+12
236.25 5.00784e+12
236.79 4.28158e+12
237.33 7.84426e+12
237.87 6.34229e+12
238.41 2.69572e+12
238.95 2.60348e+12
239.49 5.04234e+12
240.03 4.04175e+12
240.57 2.13526e+12
241.11 3.46102e+12
241.65 7.39308e+12
242.19 8.16253e+12
242.73 1.08558e+13
243.27 8.51393e+12
243.81 1.02232e+13
244.35 1.01344e+13
244.89 6.33856e+12
245.43 6.28668e+12
245.97 5.48127e+12
246.51 7.82295e+12
247.05 7.00943e+12
247.59 8.61709e+12
248.13 9.16833e+12
248.67 8.44506e+12
249.21 3.64354e+12
249.75 7.14743e+12
250.29 9.29576e+12
250.83 5.94155e+12
251.37 8.47728e+12
251.91 5.79655e+12
252.45 5.04943e+12
252.99 4.06879e+12
253.53 6.13208e+12
254.07 1.01776e+13
254.61 9.41129e+12
255.15 8.98978e+12
255.69 1.31712e+13
256.23 1.22811e+13
256.77 1.13092e+13
257.31 1.59388e+13
257.85 1.31021e+13
258.39 1.72471e+13
258.93 1.90189e+13
259.47 7.26909e+12
260.01 4.35114e+12
260.55 1.46499e+13
261.09 1.50558e+13
261.63 1.82446e+13
262.17 1.88138e+13
262.71 1.3622e+13
263.25 8.09054e+12
263.79 3.23714e+13
264.33 5.91087e+13
264.87 2.81704e+13
265.41 3.19775e+13
265.95 3.39102e+13
266.49 3.11621e+13
267.03 2.07675e+13
267.57 4.82462e+13
268.11 2.86988e+13
268.65 4.33679e+13
269.19 2.88465e+13
269.73 3.65669e+13
270.27 3.26342e+13
270.81 4.63842e+13
271.35 6.0657e+13
271.89 3.11995e+13
272.43 1.37872e+13
272.97 3.40701e+13
273.51 3.27174e+13
274.05 1.10066e+13
274.59 2.97469e+13
275.13 1.70468e+13
275.67 9.48567e+12
276.21 4.07472e+13
276.75 2.9938e+13
277.29 2.28581e+13
277.83 4.04046e+13
278.37 2.01519e+13
278.91 1.76728e+13
279.45 9.59941e+12
279.99 1.23229e+13
280.53 1.07571e+13
281.07 2.74649e+13
281.61 4.0733e+13
282.15 4.73638e+13
282.69 4.16265e+13
283.23 6.36999e+13
283.77 6.11177e+13
284.31 5.87444e+13
284.85 3.16648e+13
285.39 1.09113e+13
285.93 3.3411e+13
286.47 5.1284e+13
287.01 3.469e+13
287.55 8.05707e+13
288.09 4.13506e+13
288.63 7.90823e+13
289.17 6.13518e+13
289.71 8.03297e+13
290.25 7.82698e+13
290.79 1.29558e+14
291.33 1.16268e+14
291.87 8.06097e+13
292.41 6.7553e+13
292.95 4.59526e+13
293.49 9.54941e+13
294.03 5.54377e+13
294.57 1.06678e+14
295.11 7.08543e+13
295.65 1.09468e+14
296.19 1.03762e+14
296.73 4.48306e+13
297.27 7.89601e+13
297.81 1.67479e+14
298.35 9.21141e+13
298.89 8.04797e+13
299.43 9.41515e+13
299.97 7.59426e+13
300.51 8.73548e+13
301.05 4.40153e+13
301.59 7.48445e+13
302.13 1.85662e+13
302.67 2.64639e+13
303.21 5.39276e+13
303.75 1.15318e+14
304.29 5.08297e+13
304.83 3.172e+13
305.37 1.42706e+14
305.91 6.76843e+13
306.45 7.95726e+13
306.99 1.29214e+14
307.53 1.04394e+14
308.07 1.24289e+14
308.61 1.06632e+14
309.15 1.091e+14
309.69 8.87897e+13
310.23 5.07402e+13
310.77 1.28789e+14
311.31 1.01962e+14
311.85 1.04499e+14
312.39 1.30849e+14
312.93 9.66233e+13
313.47 1.19972e+14
314.01 1.48889e+14
314.55 4.24533e+13
315.09 9.33855e+13
315.63 1.20068e+14
316.17 5.97327e+13
316.71 8.18436e+13
317.25 1.50659e+14
317.79 1.84934e+14
318.33 1.05259e+14
318.87 1.21039e+14
319.41 6.85829e+13
319.95 1.75608e+14
320.49 1.51536e+14
321.03 9.90164e+13
321.57 1.1017e+14
322.11 1.75761e+14
322.65 9.21486e+13
323.19 1.03648e+14
323.73 6.72723e+13
324.27 1.11562e+14
324.81 8.47525e+13
325.35 1.3463e+14
325.89 1.68684e+14
326.43 1.58387e+14
326.97 2.0792e+14
327.51 1.32687e+14
328.05 1.67993e+14
328.59 1.71251e+14
329.13 1.96363e+14
329.67 1.78493e+14
330.21 2.13084e+14
330.75 1.14629e+14
331.29 1.65786e+14
331.83 1.69177e+14
332.37 1.10979e+14
332.91 1.7815e+14
333.45 1.77377e+14
333.99 1.79779e+14
334.53 2.04309e+14
335.07 1.26392e+14
335.61 1.91535e+14
336.15 9.42241e+13
336.69 1.49145e+14
337.23 1.29656e+14
337.77 2.14113e+14
338.31 1.78117e+14
338.85 1.19541e+14
339.39 6.26084e+13
339.93 1.86393e+14
340.47 2.21513e+14
341.01 1.44236e+14
341.55 8.77943e+13
342.09 2.22406e+14
342.63 2.17855e+14
343.17 2.19595e+14
343.71 1.60298e+14
344.25 1.1515e+14
344.79 1.43846e+14
345.33 1.39972e+14
345.87 1.90744e+14
346.41 1.78107e+14
346.95 2.04799e+14
347.49 1.37073e+14
348.03 1.96692e+14
348.57 1.78045e+14
349.11 1.59871e+14
349.65 1.39279e+14
350.19 1.59919e+14
350.73 1.30453e+14
351.27 1.76499e+14
351.81 2.16313e+14
352.35 2.07078e+14
352.89 1.22098e+14
353.43 1.15239e+14
353.97 2.08078e+14
354.51 2.34062e+14
355.05 2.50272e+14
355.59 1.02731e+14
356.13 2.13734e+14
356.67 9.30409e+13
357.21 1.6846e+14
357.75 1.91512e+14
358.29 8.47723e+13
358.83 7.91647e+13
359.37 1.88522e+14
359.91 2.26769e+14
360.45 1.76369e+14
360.99 5.4171e+13
361.53 2.18937e+14
362.07 1.05637e+14
362.61 1.6523e+14
363.15 1.6155e+14
363.69 2.61286e+14
364.23 1.88416e+14
364.77 2.03067e+14
365.31 2.40309e+14
365.85 2.62655e+14
366.39 2.37818e+14
366.93 2.28922e+14
367.47 2.63667e+14
368.01 2.08233e+14
368.55 2.58945e+14
369.09 2.40458e+14
369.63 2.48029e+14
370.17 2.87166e+14
370.71 9.64687e+13
371.25 2.07678e+14
371.79 3.08576e+14
372.33 1.26031e+14
372.87 7.56871e+13
373.41 1.54635e+14
373.95 1.82999e+14
374.49 1.60437e+14
375.03 6.62764e+13
375.57 2.49278e+14
376.11 2.22602e+14
376.65 2.04381e+14
377.19 1.86689e+14
377.73 2.5844e+14
378.27 2.84777e+14
378.81 2.72971e+14
379.35 2.23416e+14
379.89 1.35073e+14
380.43 2.60025e+14
380.97 2.67523e+14
381.51 2.10035e+14
382.05 1.62715e+14
382.59 1.62756e+14
383.13 2.17225e+14
383.67 1.56832e+14
384.21 7.89874e+13
384.75 2.05348e+14
385.29 3.01324e+14
385.83 2.70829e+14
386.37 2.42489e+14
386.91 1.91204e+14
387.45 2.25061e+14
387.99 1.19865e+14
388.53 2.42856e+14
389.07 1.87327e+14
389.61 2.18529e+14
390.15 2.38315e+14
390.69 1.38757e+14
391.23 3.04054e+14
391.77 2.6064e+14
392.31 2.78284e+14
392.85 1.89969e+14
393.39 5.45824e+13
393.93 1.29334e+14
394.47 1.66809e+14
395.01 2.03418e+14
395.55 3.37324e+14
396.09 3.05543e+14
396.63 1.61358e+14
397.17 1.03885e+14
397.71 2.53296e+14
398.25 3.36613e+14
398.79 2.0363e+14
399.33 3.55798e+14
399.87 2.9435e+14
400.41 3.84288e+14
400.95 4.28172e+14
401.49 2.73674e+14
402.03 4.00945e+14
402.57 2.92484e+14
403.11 3.88734e+14
403.65 3.56237e+14
404.19 3.34692e+14
404.73 1.54423e+14
405.27 4.26576e+14
405.81 3.97132e+14
406.35 3.22319e+14
406.89 3.28781e+14
407.43 4.35761e+14
407.97 3.30581e+14
408.51 3.63858e+14
409.05 4.05468e+14
409.59 3.4946e+14
410.13 2.85385e+14
410.67 4.02287e+14
411.21 3.49609e+14
411.75 4.10507e+14
412.29 3.63508e+14
412.83 4.20985e+14
413.37 2.9032e+14
413.91 4.07345e+14
414.45 2.62607e+14
414.99 4.29742e+14
415.53 2.81914e+14
416.07 4.39017e+14
416.61 4.24915e+14
417.15 4.53861e+14
417.69 3.34786e+14
418.23 4.26431e+14
418.77 3.38125e+14
419.31 3.62706e+14
419.85 4.13311e+14
420.39 3.7869e+14
420.93 4.71241e+14
421.47 3.91733e+14
422.01 4.34089e+14
422.55 2.95941e+14
423.09 3.1125e+14
423.63 3.66862e+14
424.17 3.36654e+14
424.71 4.159e+14
425.25 4.17056e+14
425.79 4.53754e+14
426.33 3.75919e+14
426.87 3.69392e+14
427.41 4.2376e+14
427.95 4.12116e+14
428.49 5.02095e+14
429.03 2.836e+14
429.57 3.81477e+14
430.11 2.03455e+14
430.65 2.38607e+14
431.19 2.54892e+14
431.73 4.92035e+14
432.27 4.53729e+14
432.81 3.28403e+14
433.35 4.68462e+14
433.89 3.06348e+14
434.43 3.53358e+14
434.97 4.4063e+14
435.51 4.55788e+14
436.05 4.16726e+14
436.59 5.03617e+14
437.13 4.06757e+14
437.67 3.71924e+14
438.21 3.63872e+14
438.75 4.75083e+14
439.29 3.4685e+14
439.83 4.34604e+14
440.37 5.08052e+14
440.91 3.87534e+14
441.45 5.09432e+14
441.99 4.74813e+14
442.53 4.38318e+14
443.07 5.1698e+14
443.61 3.21733e+14
444.15 4.7599e+14
444.69 4.91539e+14
445.23 4.84561e+14
445.77 3.99216e+14
446.31 3.26542e+14
446.85 4.95118e+14
447.39 4.14139e+14
447.93 4.99638e+14
448.47 5.21148e+14
449.01 4.43409e+14
449.55 4.06821e+14
450.09 5.28728e+14
450.63 4.94225e+14
451.17 5.33062e+14
451.71 5.15517e+14
452.25 5.21005e+14
452.79 3.76042e+14
453.33 5.20405e+14
453.87 5.24697e+14
454.41 4.99944e+14
454.95 5.18165e+14
455.49 5.11824e+14
456.03 5.24712e+14
456.57 4.89012e+14
457.11 5.15184e+14
457.65 5.2165e+14
458.19 4.45086e+14
458.73 3.53183e+14
459.27 4.15921e+14
459.81 5.13474e+14
460.35 4.96577e+14
460.89 4.15237e+14
461.43 4.68146e+14
461.97 5.24909e+14
462.51 5.30517e+14
463.05 4.47747e+14
463.59 4.98083e+14
464.13 4.63308e+14
464.67 4.87763e+14
465.21 5.23503e+14
465.75 4.65755e+14
466.29 4.87813e+14
466.83 4.06599e+14
467.37 4.57222e+14
467.91 5.02843e+14
468.45 5.25822e+14
468.99 4.73573e+14
469.53 4.81463e+14
470.07 4.43916e+14
470.61 4.74e+14
471.15 4.08583e+14
471.69 4.72361e+14
472.23 4.71854e+14
472.77 5.25754e+14
473.31 4.59693e+14
473.85 4.58931e+14
474.39 5.10882e+14
474.93 4.53729e+14
475.47 5.33302e+14
476.01 5.21049e+14
476.55 4.67941e+14
477.09 5.3739e+14
477.63 5.41595e+14
478.17 5.31819e+14
478.71 5.08224e+14
479.25 4.61241e+14
479.79 5.35404e+14
480.33 5.43953e+14
480.87 5.02427e+14
481.41 5.30673e+14
481.95 5.14484e+14
482.49 3.62786e+14
483.03 4.38731e+14
483.57 5.02416e+14
484.11 4.69456e+14
484.65 5.30404e+14
485.19 5.26023e+14
485.73 3.99004e+14
486.27 1.09985e+14
486.81 4.88754e+14
487.35 2.96197e+14
487.89 5.05368e+14
488.43 5.41228e+14
488.97 5.02818e+14
489.51 5.21849e+14
490.05 5.39401e+14
490.59 4.56527e+14
491.13 4.3838e+14
491.67 5.41324e+14
492.21 3.00588e+14
492.75 5.45577e+14
493.29 5.50328e+14
493.83 5.16526e+14
494.37 4.79041e+14
494.91 5.29038e+14
495.45 4.88942e+14
495.99 5.13318e+14
496.53 5.4568e+14
497.07 5.514e+14
497.61 5.47062e+14
498.15 4.21418e+14
498.69 3.69514e+14
499.23 4.49612e+14
499.77 5.24933e+14
500.31 4.18534e+14
500.85 3.93895e+14
501.39 4.2256e+14
501.93 4.61067e+14
502.47 4.80006e+14
503.01 5.33278e+14
503.55 5.41175e+14
504.09 4.66784e+14
504.63 5.40812e+14
505.17 5.22924e+14
505.71 5.23388e+14
506.25 5.49035e+14
506.79 5.31424e+14
507.33 4.67094e+14
507.87 5.34922e+14
508.41 5.20951e+14
508.95 4.92674e+14
509.49 5.34267e+14
510.03 3.85595e+14
510.57 4.69216e+14
511.11 4.39247e+14
511.65 5.18816e+14
512.19 4.78827e+14
512.73 4.94594e+14
513.27 4.76882e+14
513.81 5.1065e+14
514.35 5.0503e+14
514.89 4.81822e+14
515.43 5.31147e+14
515.97 5.30795e+14
516.51 5.07265e+14
517.05 2.59079e+14
517.59 4.96042e+14
518.13 4.95485e+14
518.67 4.78224e+14
519.21 5.39553e+14
519.75 4.48455e+14
520.29 5.44459e+14
520.83 5.32012e+14
521.37 5.25365e+14
521.91 4.6928e+14
522.45 5.17167e+14
522.99 4.64921e+14
523.53 5.29133e+14
524.07 5.3941e+14
524.61 5.42398e+14
525.15 4.82176e+14
525.69 4.75398e+14
526.23 5.33807e+14
526.77 4.2133e+14
527.31 5.32556e+14
527.85 5.44659e+14
528.39 5.14246e+14
528.93 5.40864e+14
529.47 5.25997e+14
530.01 4.33979e+14
530.55 5.30553e+14
531.09 5.50427e+14
531.63 5.23399e+14
532.17 5.31629e+14
532.71 4.90672e+14
533.25 5.44644e+14
533.79 5.3225e+14
534.33 5.46928e+14
534.87 5.42488e+14
535.41 5.48408e+14
535.95 5.40391e+14
536.49 5.46676e+14
537.03 5.37955e+14
537.57 5.39729e+14
538.11 4.71242e+14
538.65 5.46588e+14
539.19 5.06486e+14
539.73 5.43829e+14
540.27 5.18147e+14
540.81 5.13664e+14
541.35 5.4647e+14
541.89 5.45359e+14
542.43 5.49154e+14
542.97 5.48524e+14
543.51 5.3644e+14
544.05 5.4915e+14
544.59 5.40836e+14
545.13 5.51603e+14
545.67 4.75168e+14
546.21 5.35534e+14
546.75 5.43717e+14
547.29 5.52055e+14
547.83 3.34698e+14
548.37 5.46787e+14
548.91 4.51497e+14
549.45 5.3375e+14
549.99 5.53411e+14
550.53 5.36524e+14
551.07 5.558e+14
551.61 4.72241e+14
552.15 5.46958e+14
552.69 5.07975e+14
553.23 5.30734e+14
553.77 5.44792e+14
554.31 5.52033e+14
554.85 5.14335e+14
555.39 5.4835e+14
555.93 5.08561e+14
556.47 5.41027e+14
557.01 5.49074e+14
557.55 5.4882e+14
558.09 5.33654e+14
558.63 4.95366e+14
559.17 4.30751e+14
559.71 5.48085e+14
560.25 5.0201e+14
560.79 5.52108e+14
561.33 5.47311e+14
561.87 5.02734e+14
562.41 5.45772e+14
562.95 5.35503e+14
563.49 5.43904e+14
564.03 5.33499e+14
564.57 4.81477e+14
565.11 5.10464e+14
565.65 4.8856e+14
566.19 5.37471e+14
566.73 5.18398e+14
567.27 5.43405e+14
567.81 5.48708e+14
568.35 5.29275e+14
568.89 5.44802e+14
569.43 5.4825e+14
569.97 5.08765e+14
570.51 5.1452e+14
571.05 5.32477e+14
571.59 5.32777e+14
572.13 5.45482e+14
572.67 5.50454e+14
573.21 5.49392e+14
573.75 5.44545e+14
574.29 5.46486e+14
574.83 5.45964e+14
575.37 4.84312e+14
575.91 5.4825e+14
576.45 4.15474e+14
576.99 5.48986e+14
577.53 5.45312e+14
578.07 5.48873e+14
578.61 5.23762e+14
579.15 5.44824e+14
579.69 5.4861e+14
580.23 5.44322e+14
580.77 5.4231e+14
581.31 5.45181e+14
581.85 5.33513e+14
582.39 5.41588e+14
582.93 5.35214e+14
583.47 5.47227e+14
584.01 5.22185e+14
584.55 5.47146e+14
585.09 5.43426e+14
585.63 5.44533e+14
586.17 5.41141e+14
586.71 5.46395e+14
587.25 5.45272e+14
587.79 5.38125e+14
588.33 5.42031e+14
588.87 5.40707e+14
589.41 5.12765e+14
589.95 5.34788e+14
590.49 5.39701e+14
591.03 5.45802e+14
591.57 4.1197e+14
592.11 5.45173e+14
592.65 5.44783e+14
593.19 4.40218e+14
593.73 5.42733e+14
594.27 5.23639e+14
594.81 5.41057e+14
595.35 5.42808e+14
595.89 5.40374e+14
596.43 5.41576e+14
596.97 5.43107e+14
597.51 5.40445e+14
598.05 5.28974e+14
598.59 5.31428e+14
599.13 5.42367e+14
599.67 5.42573e+14
600.21 5.4051e+14
600.75 5.33326e+14
601.29 5.43459e+14
601.83 4.26855e+14
602.37 4.87168e+14
602.91 5.32113e+14
603.45 5.43504e+14
603.99 5.43459e+14
604.53 5.43794e+14
605.07 5.38281e+14
605.61 5.4175e+14
606.15 5.43976e+14
606.69 4.96331e+14
607.23 5.4482e+14
607.77 5.45023e+14
608.31 5.30078e+14
608.85 5.436e+14
609.39 5.34794e+14
609.93 5.48468e+14
610.47 4.40793e+14
611.01 5.27593e+14
611.55 5.4953e+14
612.09 5.45176e+14
612.63 5.45503e+14
613.17 5.28466e+14
613.71 5.33368e+14
614.25 5.48659e+14
614.79 5.4604e+14
615.33 4.88224e+14
615.87 5.4387e+14
616.41 3.9525e+14
616.95 5.46046e+14
617.49 4.88844e+14
618.03 5.45026e+14
618.57 5.41747e+14
619.11 5.45579e+14
619.65 5.38907e+14
620.19 4.79298e+14
620.73 5.47955e+14
621.27 5.45903e+14
621.81 5.007e+14
622.35 5.42705e+14
622.89 5.43748e+14
623.43 4.49226e+14
623.97 5.38778e+14
624.51 5.25372e+14
625.05 5.42099e+14
625.59 4.09971e+14
626.13 5.20426e+14
626.67 4.77859e+14
627.21 4.96848e+14
627.75 5.4405e+14
628.29 5.43833e+14
628.83 5.42422e+14
629.37 5.44049e+14
629.91 5.40152e+14
630.45 5.04372e+14
630.99 5.41395e+14
631.53 5.4353e+14
632.07 5.03593e+14
632.61 5.41799e+14
633.15 5.39223e+14
633.69 4.73723e+14
634.23 5.40895e+14
634.77 5.37532e+14
635.31 5.38275e+14
635.85 5.40266e+14
636.39 5.05475e+14
636.93 5.39128e+14
637.47 5.41201e+14
638.01 5.04953e+14
638.55 5.29187e+14
639.09 5.40809e+14
639.63 5.34802e+14
640.17 3.59759e+14
640.71 5.3368e+14
641.25 5.32358e+14
641.79 5.39394e+14
642.33 4.34866e+14
642.87 5.36755e+14
643.41 5.32638e+14
643.95 5.28327e+14
644.49 5.35687e+14
645.03 5.342e+14
645.57 5.36948e+14
646.11 5.38144e+14
646.65 5.22931e+14
647.19 5.36463e+14
647.73 4.8341e+14
648.27 5.36855e+14
648.81 5.32355e+14
649.35 4.93835e+14
649.89 4.64826e+14
650.43 5.34162e+14
650.97 5.34537e+14
651.51 5.32838e+14
652.05 4.94199e+14
652.59 5.31819e+14
653.13 5.30525e+14
653.67 5.30249e+14
654.21 5.29423e+14
654.75 5.21844e+14
655.29 5.18439e+14
655.83 4.95205e+14
656.37 3.66255e+14
656.91 4.84008e+14
657.45 4.7986e+14
657.99 5.20493e+14
658.53 5.11781e+14
659.07 5.24173e+14
659.61 5.13578e+14
660.15 5.2577e+14
660.69 5.24446e+14
661.23 5.24687e+14
661.77 5.2418e+14
662.31 5.22194e+14
662.85 5.23173e+14
663.39 5.13832e+14
663.93 5.21447e+14
664.47 5.18902e+14
665.01 5.14946e+14
665.55 5.14268e+14
666.09 5.21836e+14
666.63 5.20661e+14
667.17 5.24184e+14
667.71 5.24683e+14
668.25 5.26081e+14
668.79 5.27483e+14
669.33 5.28244e+14
669.87 5.20893e+14
670.41 5.29246e+14
670.95 5.22374e+14
671.49 4.92702e+14
672.03 5.27495e+14
672.57 5.3134e+14
673.11 5.26495e+14
673.65 5.2986e+14
674.19 5.30833e+14
674.73 5.26033e+14
675.27 5.31712e+14
675.81 5.28609e+14
676.35 5.27497e+14
676.89 5.2697e+14
677.43 4.76819e+14
677.97 5.2289e+14
678.51 5.16706e+14
679.05 5.22198e+14
679.59 5.16111e+14
680.13 5.15399e+14
680.67 5.19879e+14
681.21 4.64184e+14
681.75 5.2128e+14
682.29 5.22723e+14
682.83 5.23888e+14
683.37 5.2437e+14
683.91 5.12675e+14
684.45 4.80954e+14
684.99 5.27326e+14
685.53 5.27266e+14
686.07 5.25183e+14
686.61 5.19553e+14
687.15 5.24724e+14
687.69 5.24048e+14
688.23 5.15754e+14
688.77 5.0807e+14
689.31 5.21376e+14
689.85 5.19876e+14
690.39 5.1827e+14
690.93 5.18482e+14
691.47 5.21387e+14
692.01 5.12812e+14
692.55 5.21756e+14
693.09 5.21088e+14
693.63 5.23224e+14
694.17 5.21003e+14
694.71 4.27924e+14
695.25 5.21033e+14
695.79 5.24015e+14
696.33 5.21463e+14
696.87 5.19282e+14
697.41 5.18217e+14
697.95 5.06058e+14
698.49 5.2506e+14
699.03 4.99902e+14
699.57 5.25368e+14
700.11 5.09182e+14
700.65 5.07953e+14
701.19 5.23158e+14
701.73 5.21577e+14
702.27 5.22962e+14
702.81 5.18137e+14
703.35 5.21718e+14
703.89 5.19778e+14
704.43 5.20213e+14
704.97 5.21567e+14
705.51 5.0667e+14
706.05 5.17754e+14
706.59 5.17737e+14
707.13 5.13154e+14
707.67 5.14591e+14
708.21 5.1819e+14
708.75 5.12543e+14
709.29 5.12292e+14
709.83 5.13548e+14
710.37 5.09357e+14
710.91 5.06674e+14
711.45 5.0943e+14
711.99 5.0038e+14
712.53 5.12347e+14
713.07 5.12827e+14
713.61 5.10695e+14
714.15 5.08529e+14
714.69 5.05577e+14
715.23 5.02841e+14
715.77 4.73611e+14
716.31 5.0947e+14
716.85 5.07069e+14
717.39 5.13305e+14
717.93 5.0727e+14
718.47 5.13067e+14
719.01 5.04583e+14
719.55 4.81249e+14
720.09 5.07944e+14
720.63 5.08541e+14
721.17 4.90658e+14
721.71 4.97602e+14
722.25 5.05658e+14
722.79 4.83527e+14
723.33 5.03298e+14
723.87 5.03513e+14
724.41 4.99253e+14
724.95 5.06062e+14
725.49 5.02652e+14
726.03 5.03978e+14
726.57 4.99383e+14
727.11 4.95676e+14
727.65 5.02924e+14
728.19 5.02831e+14
728.73 4.73415e+14
729.27 4.87167e+14
729.81 5.03194e+14
730.35 4.92248e+14
730.89 4.90579e+14
731.43 4.97958e+14
731.97 4.97115e+14
732.51 4.98133e+14
733.05 4.98292e+14
733.59 4.92622e+14
734.13 4.97418e+14
734.67 4.69778e+14
735.21 4.97303e+14
735.75 4.72054e+14
736.29 4.98844e+14
736.83 4.74359e+14
737.37 4.97865e+14
737.91 4.94285e+14
738.45 4.89613e+14
738.99 4.33531e+14
739.53 4.74404e+14
740.07 4.94696e+14
740.61 4.97455e+14
741.15 4.0747e+14
741.69 4.79641e+14
742.23 4.91029e+14
742.77 4.96405e+14
743.31 4.77906e+14
743.85 4.96378e+14
744.39 4.92056e+14
744.93 4.69333e+14
745.47 4.95785e+14
746.01 4.95021e+14
746.55 4.84924e+14
747.09 4.93158e+14
747.63 4.93291e+14
748.17 4.86511e+14
748.71 4.9534e+14
749.25 4.95804e+14
749.79 4.88325e+14
750.33 4.91215e+14
750.87 4.94368e+14
751.41 4.86879e+14
751.95 4.95186e+14
752.49 4.07605e+14
753.03 4.86661e+14
753.57 4.85439e+14
754.11 4.91567e+14
754.65 4.90852e+14
755.19 4.90619e+14
755.73 4.75881e+14
756.27 4.86754e+14
756.81 4.89677e+14
757.35 4.88925e+14
757.89 4.90117e+14
758.43 4.77715e+14
758.97 4.87979e+14
759.51 4.88646e+14
760.05 4.87649e+14
760.59 4.88134e+14
761.13 4.82114e+14
761.67 4.81605e+14
762.21 4.84284e+14
762.75 4.85126e+14
763.29 4.87047e+14
763.83 4.86447e+14
764.37 4.85873e+14
764.91 4.84586e+14
765.45 4.8349e+14
765.99 4.14478e+14
766.53 4.81015e+14
767.07 4.80051e+14
767.61 4.83769e+14
768.15 4.81304e+14
768.69 4.83377e+14
769.23 4.79671e+14
769.77 4.65166e+14
770.31 4.81795e+14
770.85 4.80198e+14
771.39 4.334e+14
771.93 4.80199e+14
772.47 4.61053e+14
773.01 4.60035e+14
773.55 4.73955e+14
774.09 4.77635e+14
774.63 4.75667e+14
775.17 4.74254e+14
775.71 4.72032e+14
776.25 4.65406e+14
776.79 4.74018e+14
777.33 4.73839e+14
777.87 4.72489e+14
778.41 4.72013e+14
778.95 4.72727e+14
779.49 4.72186e+14
780.03 4.70076e+14
780.57 4.72039e+14
781.11 4.70773e+14
781.65 4.71126e+14
782.19 4.72071e+14
782.73 4.72457e+14
783.27 4.71052e+14
783.81 4.32945e+14
784.35 4.69123e+14
784.89 4.71639e+14
785.43 4.71266e+14
785.97 4.70642e+14
786.51 4.72106e+14
787.05 4.72325e+14
787.59 4.70373e+14
788.13 4.69436e+14
788.67 4.70662e+14
789.21 4.69527e+14
789.75 4.66989e+14
790.29 4.66572e+14
790.83 4.71081e+14
791.37 4.70758e+14
791.91 4.68131e+14
792.45 4.69693e+14
792.99 4.63738e+14
793.53 4.31201e+14
794.07 4.61716e+14
794.61 3.68032e+14
795.15 4.57447e+14
795.69 4.61396e+14
796.23 4.67359e+14
796.77 4.62785e+14
797.31 4.6346e+14
797.85 4.65704e+14
798.39 4.65373e+14
798.93 4.55598e+14
799.47 4.58191e+14
800.01 4.61443e+14
800.55 4.55198e+14
801.09 4.57054e+14
801.63 4.57294e+14
802.17 4.64639e+14
802.71 4.51502e+14
803.25 4.62708e+14
803.79 4.39756e+14
804.33 4.65395e+14
804.87 4.43341e+14
805.41 4.64881e+14
805.95 4.59013e+14
806.49 4.58098e+14
807.03 4.60226e+14
807.57 4.62648e+14
808.11 4.63671e+14
808.65 4.63451e+14
809.19 4.59119e+14
809.73 4.61771e+14
810.27 4.61434e+14
810.81 4.59708e+14
811.35 4.66231e+14
811.89 4.59162e+14
812.43 4.664e+14
812.97 4.63499e+14
813.51 4.62946e+14
814.05 4.62848e+14
814.59 4.62211e+14
815.13 4.62611e+14
815.67 4.52965e+14
816.21 4.61017e+14
816.75 4.61313e+14
817.29 4.59624e+14
817.83 4.62294e+14
818.37 4.56868e+14
818.91 4.1627e+14
819.45 4.56779e+14
819.99 4.60949e+14
820.53 4.54499e+14
821.07 4.51499e+14
821.61 4.46071e+14
822.15 4.56194e+14
822.69 4.58466e+14
823.23 4.56555e+14
823.77 4.52229e+14
824.31 4.58505e+14
824.85 4.58141e+14
825.39 4.54188e+14
825.93 4.49491e+14
826.47 4.58285e+14
827.01 4.52695e+14
827.55 4.52809e+14
828.09 4.46166e+14
828.63 4.55807e+14
829.17 4.48305e+14
829.71 4.45822e+14
830.25 4.50111e+14
830.79 4.17715e+14
831.33 4.43853e+14
831.87 4.53473e+14
832.41 4.44808e+14
832.95 3.32054e+14
833.49 4.44087e+14
834.03 4.40497e+14
834.57 4.47807e+14
835.11 4.42598e+14
835.65 4.47749e+14
836.19 4.52061e+14
836.73 4.49433e+14
837.27 4.5048e+14
837.81 4.50845e+14
838.35 4.50845e+14
838.89 4.44975e+14
839.43 4.49183e+14
839.97 4.49066e+14
840.51 4.42909e+14
841.05 4.45012e+14
841.59 4.45042e+14
842.13 4.42405e+14
842.67 4.28969e+14
843.21 4.45031e+14
843.75 4.0416e+14
844.29 4.39842e+14
844.83 4.28536e+14
845.37 4.44346e+14
845.91 4.39863e+14
846.45 4.43681e+14
846.99 4.40199e+14
847.53 4.43053e+14
848.07 4.40663e+14
848.61 4.39527e+14
849.15 4.40092e+14
849.69 4.30334e+14
850.23 4.08847e+14
850.77 4.35256e+14
851.31 4.3566e+14
851.85 4.37247e+14
852.39 4.3643e+14
852.93 4.09877e+14
853.47 4.29235e+14
854.01 3.85012e+14
854.55 2.70741e+14
855.09 4.1263e+14
855.63 4.29854e+14
856.17 4.3131e+14
856.71 4.3463e+14
857.25 4.34048e+14
857.79 4.31854e+14
858.33 4.35839e+14
858.87 4.23262e+14
859.41 4.31061e+14
859.95 4.04572e+14
860.49 4.3042e+14
861.03 4.32653e+14
861.57 4.36991e+14
862.11 4.37114e+14
862.65 4.39495e+14
863.19 4.38554e+14
863.73 4.39506e+14
864.27 4.39502e+14
864.81 4.39469e+14
865.35 4.35483e+14
865.89 4.20994e+14
866.43 1.6128e+14
866.97 4.13441e+14
867.51 4.36749e+14
868.05 4.42248e+14
868.59 4.40874e+14
869.13 3.53941e+14
869.67 4.40006e+14
870.21 4.20655e+14
870.75 4.44594e+14
871.29 3.80381e+14
871.83 4.46373e+14
872.37 4.46521e+14
872.91 4.44428e+14
873.45 4.43492e+14
873.99 4.35217e+14
874.53 4.30564e+14
875.07 4.35847e+14
875.61 4.34584e+14
876.15 4.38893e+14
876.69 4.31446e+14
877.23 4.38774e+14
877.77 4.36984e+14
878.31 4.12187e+14
878.85 4.36899e+14
879.39 4.34522e+14
879.93 4.29841e+14
880.47 4.34032e+14
881.01 4.07571e+14
881.55 4.31684e+14
882.09 4.33227e+14
882.63 3.93934e+14
883.17 4.3265e+14
883.71 4.33301e+14
884.25 4.31407e+14
884.79 4.30251e+14
885.33 4.2984e+14
885.87 4.26708e+14
886.41 4.15437e+14
886.95 3.26983e+14
887.49 4.27372e+14
888.03 4.26826e+14
888.57 4.25283e+14
889.11 4.2658e+14
889.65 4.25586e+14
890.19 4.06191e+14
890.73 4.25313e+14
891.27 4.26179e+14
891.81 4.25343e+14
892.35 4.25401e+14
892.89 4.19434e+14
893.43 4.13119e+14
893.97 4.23468e+14
894.51 4.17558e+14
895.05 4.21291e+14
895.59 4.20659e+14
896.13 4.22436e+14
896.67 4.22028e+14
897.21 4.20504e+14
897.75 4.09363e+14
898.29 4.21368e+14
898.83 4.19296e+14
899.37 4.09221e+14
899.91 4.16143e+14
900.45 4.15737e+14
900.99 4.08784e+14
901.53 4.02109e+14
902.07 4.07234e+14
902.61 4.1085e+14
903.15 4.14539e+14
903.69 4.1626e+14
904.23 4.16386e+14
904.77 4.16439e+14
905.31 4.16713e+14
905.85 4.1663e+14
906.39 3.22461e+14
906.93 4.16328e+14
907.47 4.16065e+14
908.01 4.1195e+14
908.55 4.14809e+14
909.09 2.79433e+14
909.63 4.11229e+14
910.17 4.07406e+14
910.71 4.13343e+14
911.25 4.14672e+14
911.79 4.1455e+14
912.33 4.14199e+14
912.87 4.12637e+14
913.41 4.12345e+14
913.95 4.01333e+14
914.49 4.08629e+14
915.03 3.7074e+14
915.57 4.12403e+14
916.11 4.11335e+14
916.65 3.91505e+14
917.19 4.05019e+14
917.73 4.08565e+14
918.27 4.11333e+14
918.81 4.10431e+14
919.35 4.08468e+14
919.89 4.09118e+14
920.43 4.00145e+14
920.97 4.03064e+14
921.51 3.6392e+14
922.05 3.72679e+14
922.59 4.01222e+14
923.13 3.73276e+14
923.67 3.99769e+14
924.21 3.96484e+14
924.75 4.02924e+14
925.29 4.04002e+14
925.83 2.75583e+14
926.37 3.96347e+14
926.91 4.07077e+14
927.45 4.05418e+14
927.99 4.06773e+14
928.53 4.06406e+14
929.07 4.05909e+14
929.61 4.05567e+14
930.15 4.05549e+14
930.69 4.05285e+14
931.23 4.03427e+14
931.77 4.05504e+14
932.31 4.06321e+14
932.85 4.06516e+14
933.39 4.0667e+14
933.93 4.06831e+14
934.47 4.07e+14
935.01 4.06467e+14
935.55 4.07002e+14
936.09 3.92209e+14
936.63 4.05816e+14
937.17 4.06812e+14
937.71 4.01843e+14
938.25 3.75762e+14
938.79 4.04268e+14
939.33 4.03861e+14
939.87 4.07834e+14
940.41 3.98885e+14
940.95 3.90586e+14
941.49 4.01937e+14
942.03 3.78913e+14
942.57 4.0633e+14
943.11 4.05068e+14
943.65 4.00835e+14
944.19 3.75742e+14
944.73 3.96887e+14
945.27 4.05131e+14
945.81 3.89595e+14
946.35 3.98818e+14
946.89 3.99835e+14
947.43 4.01885e+14
947.97 3.91844e+14
948.51 4.02226e+14
949.05 3.91201e+14
949.59 3.96803e+14
950.13 4.0213e+14
950.67 3.90896e+14
951.21 3.9996e+14
951.75 3.98314e+14
952.29 3.68205e+14
952.83 3.92291e+14
953.37 3.94332e+14
953.91 3.80032e+14
954.45 3.84633e+14
954.99 3.70345e+14
955.53 3.82726e+14
956.07 3.98057e+14
956.61 3.83068e+14
957.15 3.95744e+14
957.69 3.60327e+14
958.23 3.86522e+14
958.77 3.95507e+14
959.31 3.95973e+14
959.85 3.86151e+14
960.39 3.92099e+14
960.93 3.89504e+14
961.47 3.90103e+14
962.01 3.84988e+14
962.55 3.90083e+14
963.09 3.91318e+14
963.63 3.89592e+14
964.17 3.91592e+14
964.71 3.89029e+14
965.25 3.83514e+14
965.79 3.90935e+14
966.33 3.90983e+14
966.87 3.8965e+14
967.41 3.88997e+14
967.95 3.85766e+14
968.49 3.84648e+14
969.03 3.88761e+14
969.57 3.87818e+14
970.11 3.88745e+14
970.65 3.83834e+14
971.19 3.88152e+14
971.73 3.79948e+14
972.27 3.88229e+14
972.81 3.87845e+14
973.35 3.85467e+14
973.89 3.79984e+14
974.43 3.86499e+14
974.97 3.78212e+14
975.51 3.85566e+14
976.05 3.69487e+14
976.59 3.50878e+14
977.13 3.76629e+14
977.67 3.84372e+14
978.21 3.81983e+14
978.75 3.81308e+14
979.29 3.81591e+14
979.83 3.8015e+14
980.37 3.61119e+14
980.91 3.78106e+14
981.45 3.73028e+14
981.99 3.81745e+14
982.53 3.8012e+14
983.07 3.78467e+14
983.61 3.72799e+14
984.15 3.79879e+14
984.69 3.76777e+14
985.23 3.77459e+14
985.77 3.70761e+14
986.31 3.76698e+14
986.85 3.77047e+14
987.39 3.74814e+14
987.93 3.78096e+14
988.47 3.76299e+14
989.01 3.7126e+14
989.55 3.76812e+14
990.09 3.68039e+14
990.63 3.74371e+14
991.17 3.76324e+14
991.71 3.7551e+14
992.25 3.75785e+14
992.79 3.74975e+14
993.33 3.59091e+14
993.87 3.75164e+14
994.41 3.70678e+14
994.95 3.73485e+14
995.49 3.71246e+14
996.03 3.71764e+14
996.57 3.72703e+14
997.11 3.73776e+14
997.65 3.73146e+14
998.19 3.73788e+14
998.73 3.7169e+14
999.27 3.73172e+14
999.81 3.68845e+14
1000.35 3.70744e+14
1000.89 3.72584e+14
1000.99 3.71203e+14